Folder: basf_analysis (part 2)

File: XRD_list.txt
# [0.0, 772.0, 1544.0, 2316.0, 3090.0, 3861.0, 4634.0, 5406.0, 6179.0, 6952.0, 7724.0, 8496.0, 9267.0, 10040.0, 10814.0, 11585.0, 12357.0, 13129.0, 13902.0, 14675.0, 15447.0, 16219.0, 16992.0, 17765.0, 18538.0, 19310.0, 20082.0, 20854.0, 21626.0, 22400.0]
1.5 2.16142 2.43412 2.43546 2.36527 2.45762 2.39762 2.53795 2.51679 2.54829 2.4444 2.4652 2.33638 2.55359 2.31789 2.49354 2.53894 2.4611 2.58033 2.53628 2.49779 2.54954 2.46288 2.53049 2.52133 2.61193 2.54448 2.65566 2.64203 2.4403 2.60899
2.8 6.90967 6.27764 6.51105 6.71184 6.5302 6.55707 6.7011 6.3558 6.45929 6.32839 6.38388 6.09596 6.43883 6.19688 6.51857 6.29679 6.4428 6.526 6.34703 6.5132 6.35867 6.13065 6.32795 6.39881 6.53928 6.47573 6.54775 6.66994 6.26561 6.27314
4.1 9.30971 8.68545 8.75465 8.7771 8.75192 9.06029 8.97296 8.9181 8.77664 8.64436 8.67337 8.72497 8.74925 8.6508 8.60568 8.86039 8.86448 8.82267 8.8806 9.0915 8.74765 8.82978 8.63583 8.78858 8.86017 8.80024 8.81704 9.10191 8.63418 8.73655
5.4 6.26529 5.69696 5.7877 5.90376 5.8607 5.91667 5.98725 5.93222 5.83914 5.62048 5.81588 5.75256 5.78569 5.83396 5.88407 5.82185 5.94939 5.89822 5.87683 5.98981 5.77049 5.82461 5.76655 5.96334 5.91656 5.72226 5.96522 5.98907 5.76646 5.96256
6.7 3.69837 3.42606 3.39454 3.51335 3.50276 3.56792 3.53907 3.39766 3.49387 3.40188 3.37968 3.41372 3.38827 3.33278 3.44966 3.4886 3.46714 3.48483 3.31449 3.54931 3.36001 3.46717 3.38569 3.44442 3.52711 3.44449 3.65554 3.62543 3.42823 3.44267
8 3.69864 3.48853 3.57115 3.5394 3.53909 3.56769 3.50812 3.50043 3.53592 3.43584 3.35863 3.42322 3.4743 3.44056 3.5696 3.44756 3.46648 3.56725 3.47899 3.59397 3.46336 3.41938 3.43482 3.55916 3.51669 3.59244 3.43284 3.53925 3.29645 3.45051
9.3 3.37771 3.19973 3.19614 3.16662 3.17065 3.24933 3.16334 3.23639 3.16728 3.12004 3.17821 3.20435 3.21739 3.12377 3.11949 3.21669 3.18714 3.22901 3.17828 3.14147 3.1701 3.15509 3.14359 3.18682 3.23697 3.16389 3.15149 3.24129 3.12832 3.17186
10.6 2.4336 2.3392 2.31117 2.35165 2.31497 2.36515 2.31259 2.35675 2.33022 2.26879 2.29696 2.31775 2.33152 2.31411 2.30701 2.32159 2.32767 2.35193 2.31336 2.31932 2.29366 2.30441 2.32719 2.32515 2.35757 2.36098 2.3229 2.33605 2.27463 2.34659
11.9 2.1448 2.0597 2.06312 2.04894 2.05001 2.09412 2.0706 2.03887 2.06071 2.00386 2.05064 2.06 2.03505 2.00826 1.99728 2.05343 2.04634 2.07108 2.04591 2.05675 2.0248 2.07559 2.02399 2.08287 2.08485 2.06923 2.06525 2.05903 1.99036 2.05137
13.2 1.83874 1.78982 1.75881 1.7737 1.75298 1.8081 1.77652 1.7743 1.76282 1.74054 1.74683 1.72888 1.76965 1.73495 1.76479 1.77769 1.76476 1.78546 1.76385 1.75485 1.74368 1.74519 1.73611 1.77606 1.74944 1.7495 1.77171 1.77644 1.7015 1.79408
14.5 1.66304 1.57347 1.559 1.59395 1.57454 1.6093 1.58752 1.57181 1.59617 1.56081 1.5689 1.5873 1.57645 1.56741 1.58888 1.59269 1.57081 1.59165 1.55762 1.59023 1.54537 1.58575 1.54533 1.57965 1.59503 1.56483 1.56382 1.61095 1.52941 1.57816
15.8 1.47251 1.42054 1.41804 1.4534 1.42416 1.45405 1.42854 1.42065 1.43076 1.41182 1.39359 1.39575 1.41471 1.37291 1.41288 1.43764 1.42276 1.40771 1.44071 1.41338 1.40295 1.41782 1.41327 1.44278 1.42505 1.412 1.39739 1.41583 1.38487 1.40744
17.1 1.3321 1.29813 1.28501 1.3192 1.28108 1.30906 1.29863 1.30112 1.27193 1.27832 1.26926 1.2658 1.27229 1.27999 1.27874 1.29981 1.30119 1.3021 1.28488 1.29515 1.26764 1.27845 1.28924 1.29224 1.30688 1.28798 1.27053 1.31756 1.27008 1.2677
18.4 1.30431 1.26478 1.24291 1.27263 1.26347 1.2654 1.26905 1.26129 1.27119 1.23206 1.24814 1.23846 1.26294 1.25343 1.26261 1.25804 1.25515 1.28604 1.26747 1.25397 1.23865 1.25133 1.26315 1.2632 1.27922 1.25478 1.24502 1.2745 1.26013 1.2344
19.7 1.28215 1.25899 1.23279 1.25299 1.2225 1.26174 1.23342 1.24305 1.23743 1.2199 1.22745 1.23766 1.23178 1.24425 1.22334 1.23664 1.23793 1.25898 1.22718 1.2281 1.21836 1.22832 1.25212 1.23368 1.2644 1.24173 1.22925 1.2483 1.24914 1.23556
21 1.28646 1.21703 1.2212 1.23494 1.22985 1.25381 1.23137 1.23578 1.21826 1.20355 1.23674 1.20405 1.22871 1.22825 1.23496 1.2262 1.21512 1.25659 1.22402 1.23962 1.20535 1.21305 1.22348 1.24427 1.24359 1.24332 1.20514 1.2375 1.22032 1.22599
22.3 1.25211 1.23037 1.2121 1.23726 1.2112 1.24066 1.22434 1.24396 1.23142 1.19877 1.21698 1.21195 1.22627 1.23386 1.23042 1.23732 1.23115 1.23576 1.21531 1.2259 1.21563 1.21108 1.25432 1.22943 1.24026 1.2354 1.2115 1.22664 1.21547 1.21429
23.6 1.29314 1.22698 1.20954 1.23309 1.22712 1.2435 1.22583 1.23447 1.22874 1.20062 1.23755 1.22017 1.21307 1.23849 1.21849 1.23581 1.22466 1.24267 1.20432 1.21844 1.21792 1.22404 1.23363 1.23701 1.25117 1.23962 1.22039 1.24101 1.22947 1.22931
24.9 1.256 1.20438 1.20586 1.20918 1.19868 1.22563 1.19585 1.20523 1.19961 1.16835 1.2227 1.19458 1.20954 1.21738 1.20094 1.19189 1.22256 1.22518 1.19277 1.20542 1.19101 1.19662 1.21383 1.20688 1.2215 1.19937 1.20359 1.20686 1.20025 1.20206
26.2 1.20665 1.18307 1.17815 1.17024 1.15339 1.1868 1.18256 1.19155 1.17552 1.15845 1.1662 1.17192 1.15978 1.15894 1.17778 1.18411 1.1754 1.17625 1.18409 1.18215 1.16386 1.18666 1.17072 1.17493 1.18851 1.16107 1.16995 1.1924 1.18043 1.15825
27.5 1.15684 1.1274 1.12004 1.13897 1.12173 1.12964 1.12481 1.133 1.09887 1.11846 1.12228 1.11844 1.12229 1.12019 1.11584 1.11411 1.13076 1.13403 1.11154 1.11969 1.11789 1.13899 1.13298 1.12038 1.13551 1.10784 1.12286 1.12483 1.12636 1.10284
28.8 1.09885 1.05742 1.06106 1.05975 1.06937 1.08436 1.07627 1.08283 1.03526 1.06402 1.068 1.06515 1.06943 1.0515 1.06896 1.0616 1.07706 1.07391 1.05835 1.0517 1.0546 1.06577 1.06574 1.06495 1.06236 1.0513 1.07202 1.06639 1.05988 1.06511
30.1 1.00862 1.00175 0.992462 1.00404 0.992604 1.01813 0.983388 1.00302 1.00303 0.980293 1.00724 0.985646 0.99308 0.997318 0.989287 1.00064 0.996584 1.01384 0.994097 1.01287 0.978169 0.98607 1.0053 0.985182 1.00933 0.987938 0.983834 0.999931 0.982805 0.985972
31.4 0.949942 0.943874 0.92906 0.928076 0.943431 0.930904 0.930137 0.928191 0.915237 0.913274 0.936253 0.928041 0.928073 0.932201 0.923801 0.934178 0.929777 0.933293 0.916036 0.936722 0.926318 0.922334 0.92703 0.928647 0.938686 0.920236 0.930649 0.943181 0.922985 0.912179
32.7 0.868168 0.853662 0.853439 0.857738 0.850832 0.849294 0.856877 0.860721 0.852838 0.854182 0.853734 0.857063 0.850015 0.845328 0.844199 0.85584 0.85242 0.863009 0.856004 0.860308 0.842661 0.856907 0.854353 0.856164 0.85858 0.857953 0.857236 0.850897 0.848097 0.852688
34 0.81784 0.797697 0.80376 0.809899 0.801939 0.798217 0.804904 0.806027 0.801904 0.802532 0.806387 0.80652 0.798759 0.805276 0.800829 0.806607 0.803113 0.807927 0.801921 0.806783 0.79728 0.805748 0.810991 0.801811 0.808173 0.797606 0.805342 0.805351 0.799026 0.796407
35.3 0.764835 0.754037 0.756257 0.753399 0.751926 0.749284 0.751666 0.74839 0.752601 0.748824 0.754212 0.756692 0.754409 0.754459 0.745919 0.750168 0.746768 0.751544 0.750927 0.758214 0.75079 0.755259 0.752983 0.751725 0.75132 0.748026 0.748624 0.746624 0.745603 0.752639
36.6 0.705908 0.693624 0.693675 0.702826 0.691645 0.69209 0.693216 0.706192 0.695727 0.693314 0.700465 0.700749 0.698087 0.694623 0.689804 0.700678 0.691354 0.700111 0.692697 0.699344 0.692487 0.696913 0.696116 0.69607 0.700181 0.69197 0.696164 0.689669 0.695634 0.692756
37.9 0.646254 0.636142 0.635882 0.635234 0.63036 0.634121 0.637172 0.63972 0.635871 0.632412 0.641805 0.637944 0.637195 0.638016 0.631487 0.638398 0.636078 0.641241 0.638681 0.641213 0.629532 0.634603 0.639051 0.638765 0.642474 0.633604 0.640825 0.634796 0.632148 0.635652
39.2 0.586318 0.57589 0.577508 0.583436 0.579736 0.579591 0.585838 0.584318 0.581981 0.574653 0.580948 0.584633 0.581139 0.580364 0.577052 0.577168 0.577966 0.579824 0.580602 0.583623 0.577716 0.578406 0.577245 0.5843 0.582352 0.578864 0.582703 0.579984 0.574859 0.584481
40.5 0.510613 0.5029 0.508613 0.507304 0.503264 0.504803 0.501479 0.504352 0.503519 0.506677 0.504693 0.504485 0.504565 0.505744 0.510723 0.502889 0.504575 0.505908 0.504213 0.503901 0.506044 0.502617 0.504098 0.502526 0.506345 0.502655 0.50434 0.500806 0.502268 0.500069
41.8 0.440161 0.431665 0.433351 0.435023 0.430286 0.431107 0.434283 0.434918 0.439358 0.434085 0.43024 0.431192 0.433198 0.434904 0.431021 0.43666 0.4301 0.432195 0.435385 0.435017 0.429009 0.433408 0.440816 0.430484 0.430617 0.43788 0.430928 0.437472 0.431908 0.431257
43.1 0.374428 0.36878 0.369588 0.372565 0.369907 0.371107 0.371361 0.365582 0.366836 0.36879 0.367026 0.375542 0.369236 0.379233 0.369853 0.372729 0.372193 0.368889 0.372056 0.372455 0.371584 0.374873 0.370687 0.371376 0.373054 0.370545 0.368849 0.374835 0.369228 0.368287
44.4 0.315594 0.306804 0.310439 0.313029 0.306765 0.30963 0.309897 0.314725 0.312864 0.306182 0.308679 0.31527 0.310671 0.309239 0.312539 0.31477 0.312101 0.303965 0.313349 0.314699 0.309831 0.311195 0.312425 0.31023 0.313744 0.313855 0.309533 0.309665 0.308317 0.309973
45.7 0.256347 0.253341 0.253152 0.256114 0.252828 0.25267 0.256452 0.25294 0.251359 0.253345 0.255028 0.253934 0.252233 0.256165 0.255769 0.25413 0.253383 0.253698 0.254296 0.249327 0.256705 0.253649 0.25437 0.253139 0.255551 0.255127 0.253378 0.251858 0.254468 0.251449
47 0.198391 0.201611 0.199094 0.202177 0.200721 0.200734 0.201314 0.199419 0.197284 0.200042 0.202451 0.201733 0.204229 0.198768 0.204144 0.200393 0.199638 0.203746 0.199795 0.200719 0.198953 0.202994 0.205087 0.201037 0.200629 0.203297 0.201619 0.200161 0.198022 0.198832
48.3 0.149365 0.147281 0.151112 0.149907 0.148739 0.144113 0.149135 0.148539 0.14585 0.148855 0.150897 0.148659 0.148786 0.149653 0.152177 0.148645 0.150082 0.148908 0.147388 0.147331 0.148246 0.149175 0.151795 0.146381 0.148625 0.149645 0.151939 0.147854 0.146105 0.148885
48.7 0.129069 0.131141 0.136427 0.131336 0.13352 0.129679 0.131876 0.133032 0.131454 0.135644 0.13339 0.131863 0.130783 0.129505 0.13505 0.134906 0.13444 0.133894 0.130797 0.130667 0.131856 0.130352 0.131983 0.131908 0.133345 0.129891 0.128444 0.132538 0.133449 0.130212