Folder: basf_analysis

Note: bg.txt
# [0.0]
0.30000000 2082.73253295
0.40000000 1787.46377013
0.50000000 1662.00640209
0.60000000 1594.58850675
0.70000000 1585.07333096
0.80000000 1627.31106439
0.90000000 1714.38296341
1.00000000 1832.43768569
1.10000000 1936.50440241
1.20000000 2104.77612002
1.30000000 2288.28187851
1.40000000 2444.34153239
1.50000000 2616.38028956
1.60000000 2808.13881842
1.70000000 2997.52533438
1.80000000 3302.12407237
1.90000000 3692.56480046
2.00000000 4155.91564357
2.10000000 4765.61300667
2.20000000 5555.58243933
2.30000000 6488.40435953
2.40000000 7669.80703277
2.50000000 8971.33983635
2.60000000 10157.47525841
2.70000000 11058.60520508
2.80000000 11516.23439311
2.90000000 11283.49129375
3.00000000 10679.65866022
3.10000000 9748.03309593
3.20000000 8696.76306811
3.30000000 7712.04964166
3.40000000 6912.95381752
3.50000000 6260.66020576
3.60000000 5618.34856474
3.70000000 5104.25348053
3.80000000 4693.15434684
3.90000000 4392.96429082
4.00000000 4095.51473471
4.10000000 3841.17957427
4.20000000 3687.18209119
4.30000000 3508.94792557
4.40000000 3337.69569069
4.50000000 3179.90111388
4.60000000 3016.04596355
4.70000000 2920.06400153
4.80000000 2780.73034851
4.90000000 2651.30326000
5.00000000 2544.03107732
5.10000000 2469.56268841
5.20000000 2452.37049735
5.30000000 2446.53037447
5.40000000 2496.55669964
5.50000000 2517.72378530
5.60000000 2535.07054792
5.70000000 2498.54414506
5.80000000 2477.75428203
5.90000000 2409.08436282
6.00000000 2321.54476530
6.10000000 2275.95378645
6.20000000 2204.19936596
6.30000000 2127.47427941
6.40000000 2072.61809971
6.50000000 2026.16961427
6.60000000 1967.14403925
6.70000000 1921.23098453
6.80000000 1880.03846163
6.90000000 1849.27186219
7.00000000 1813.13407613
7.10000000 1764.23498106
7.20000000 1734.58538789
7.30000000 1736.28712926
7.40000000 1712.05615355
7.50000000 1702.96491231
7.60000000 1668.46720495
7.70000000 1646.72576848
7.80000000 1622.16558463
7.90000000 1595.30022018
8.00000000 1543.70120070
8.10000000 1504.43112903
8.20000000 1473.52143129
8.30000000 1413.26930785
8.40000000 1350.73206604
8.50000000 1305.56547394
8.60000000 1249.94359231
8.70000000 1198.48541996
8.80000000 1142.32487945
8.90000000 1108.79373283
9.00000000 1056.08238041
9.10000000 1016.75153285
9.20000000 978.48593396
9.30000000 942.26633377
9.40000000 898.53495996
9.50000000 848.08520264
9.60000000 795.23361897
9.70000000 747.31834440
9.80000000 692.14115705
9.90000000 621.33221393
10.00000000 562.54239704
10.10000000 502.54726571
10.20000000 450.21895015
10.30000000 405.17470358
10.40000000 368.85733344
10.50000000 335.65893731
10.60000000 305.00071243
10.70000000 281.98215675
10.80000000 262.40121994
10.90000000 240.79379179
11.00000000 228.30746137
11.10000000 212.05859104
11.20000000 198.26438014
11.30000000 186.43057126
11.40000000 174.54165916
11.50000000 166.10674731
11.60000000 155.14598987
11.70000000 146.00723990
11.80000000 134.82739243
11.90000000 130.02400823
12.00000000 119.62272819
12.10000000 113.78189429
12.20000000 106.7349

File: aloh3_XRD_list.txt
# [0.0, 772.0, 1544.0, 2316.0, 3090.0, 3861.0, 4634.0, 5406.0, 6179.0, 6952.0, 7724.0, 8496.0, 9267.0, 10040.0, 10814.0, 11585.0, 12357.0, 13129.0, 13902.0, 14675.0, 15447.0, 16219.0, 16992.0, 17765.0, 18538.0, 19310.0, 20082.0, 20854.0, 21626.0, 22400.0]
1.5 2.1446 2.4014 2.40336 2.33726 2.42478 2.36794 2.5042 2.48252 2.51211 2.41837 2.43123 2.31418 2.51758 2.29697 2.45943 2.504 2.42907 2.5444 2.50045 2.46515 2.51284 2.42941 2.49412 2.48652 2.57479 2.50893 2.61731 2.60527 2.41442 2.57121
2.8 6.94562 6.30724 6.53534 6.73567 6.55371 6.58492 6.72551 6.38664 6.48399 6.37326 6.4088 6.1499 6.46552 6.24965 6.5419 6.32982 6.47299 6.55301 6.37498 6.54272 6.38447 6.16524 6.35406 6.42712 6.5654 6.50217 6.57512 6.69765 6.31232 6.30606
4.1 9.0167 8.39952 8.46754 8.49336 8.46519 8.76402 8.68215 8.62759 8.48859 8.38651 8.38795 8.46567 8.46273 8.3965 8.32417 8.57198 8.57523 8.53601 8.58941 8.79686 8.46049 8.54048 8.35123 8.50121 8.57176 8.51168 8.52959 8.80677 8.37698 8.4501
5.4 6.11381 5.55211 5.64087 5.75638 5.71155 5.76701 5.83682 5.7819 5.69024 5.4951 5.66689 5.62404 5.63915 5.7048 5.73421 5.67534 5.79862 5.74972 5.72675 5.83916 5.62343 5.67627 5.61886 5.81114 5.76711 5.57784 5.81417 5.83896 5.6368 5.81001
6.7 3.60435 3.33414 3.30428 3.42103 3.40896 3.47266 3.44572 3.30807 3.4001 3.32105 3.28926 3.33304 3.29834 3.25561 3.35769 3.39607 3.37526 3.39272 3.2268 3.45556 3.2705 3.37436 3.29486 3.35279 3.4334 3.35266 3.55752 3.5294 3.34671 3.35087
8 3.52156 3.31711 3.39702 3.36725 3.36624 3.39308 3.33661 3.32951 3.36317 3.27742 3.19191 3.26529 3.30366 3.28321 3.39606 3.27845 3.29586 3.39407 3.30847 3.41994 3.29354 3.25109 3.26544 3.38588 3.345 3.4174 3.2633 3.36613 3.1425 3.28029
9.3 3.20468 3.03178 3.02816 3.00056 3.00387 3.07891 2.99691 3.06768 3.00071 2.96556 3.01108 3.04694 3.04914 2.96977 2.95502 3.04884 3.01971 3.06055 3.01136 2.97642 3.00385 2.98947 2.97795 3.0196 3.06819 2.99739 2.98534 3.0718 2.97353 3.00476
10.6 2.31374 2.22157 2.1944 2.23412 2.1983 2.2462 2.19607 2.23893 2.21307 2.16129 2.18085 2.20858 2.21435 2.20561 2.19092 2.2051 2.21049 2.23427 2.19684 2.20296 2.17804 2.18851 2.21014 2.20822 2.23968 2.24267 2.20586 2.21855 2.16691 2.22858
11.9 2.06288 1.97873 1.98173 1.96887 1.96944 2.01208 1.98938 1.95915 1.97977 1.93109 1.96985 1.9856 1.95487 1.93587 1.91858 1.97313 1.96579 1.9902 1.96554 1.97618 1.94503 1.99422 1.94407 2.00124 2.00344 1.98785 1.98386 1.97836 1.91802 1.97047
13.2 1.776 1.7267 1.69648 1.71161 1.6912 1.74461 1.71398 1.71221 1.70069 1.68441 1.68506 1.67336 1.7071 1.67947 1.70251 1.71538 1.70244 1.72295 1.70174 1.69316 1.68204 1.68371 1.6746 1.71357 1.68817 1.6877 1.70896 1.71411 1.64662 1.73057
14.5 1.6105 1.52199 1.50775 1.54218 1.52307 1.55691 1.53565 1.52085 1.54391 1.5144 1.51741 1.54029 1.5247 1.52124 1.53677 1.54088 1.51935 1.53997 1.50678 1.5383 1.49469 1.53385 1.49453 1.52809 1.5432 1.51354 1.51242 1.55849 1.48401 1.5263
15.8 1.42085 1.3691 1.36645 1.40117 1.37262 1.40162 1.3769 1.36958 1.37899 1.36497 1.34297 1.3496 1.36338 1.32769 1.36169 1.3859 1.37119 1.35708 1.38863 1.36236 1.35204 1.36653 1.36187 1.39067 1.37378 1.36078 1.34657 1.3648 1.33889 1.35629
17.1 1.27881 1.24508 1.23219 1.2659 1.22851 1.25553 1.24563 1.24816 1.2196 1.22835 1.21682 1.21615 1.21994 1.2302 1.22634 1.24692 1.248 1.24905 1.2323 1.24241 1.21549 1.22609 1.23639 1.23936 1.25378 1.23522 1.2182 1.26405 1.22022 1.21541
18.4 1.25073 1.21164 1.19021 1.21953 1.21043 1.21201 1.21585 1.20836 1.21799 1.18223 1.19532 1.18853 1.20992 1.20333 1.20972 1.20526 1.20217 1.23248 1.21442 1.20131 1.18631 1.19872 1.21004 1.21011 1.22587 1.20192 1.19242 1.2211 1.2096 1.18203
19.7 1.22036 1.19756 1.172 1.1919 1.16203 1.19991 1.1726 1.18203 1.17659 1.16202 1.1667 1.1794 1.17115 1.18595 1.16308 1.17596 1.17695 1.19754 1.16669 1.16761 1.15818 1.16787 1.19088 1.17289 1.20291 1.1808 1.16868 1.18701 1.19046 1.17479
21 1.21664 1.14894 1.15309 1.16658 1.16156 1.18442 1.1629 1.16717 1.1502 1.13847 1.16811 1.13892 1.16055 1.16265 1.16685 1.15812 1.14703 1.18745 1.15598 1.17118 1.1379 1.14533 1.15529 1.17558 1.17487 1.17472 1.13756 1.16872 1.15463 1.15784
22.3 1.17995 1.15894 1.14122 1.16582 1.14034 1.16853 1.15299 1.1721 1.16002 1.13081 1.14579 1.14365 1.15517 1.16512 1.15944 1.16597 1.15966 1.16406 1.14446 1.15476 1.14494 1.1404 1.18239 1.15808 1.16857 1.16398 1.14079 1.15506 1.14687 1.14342
23.6 1.21684 1.15254 1.13566 1.15865 1.15281 1.16817 1.15134 1.1597 1.15431 1.12957 1.16278 1.14863 1.13922 1.16657 1.14475 1.16141 1.15024 1.16768 1.13065 1.14438 1.14412 1.14997 1.15911 1.16239 1.1761 1.16502 1.14639 1.16597 1.15749 1.15501
24.9 1.18018 1.13014 1.13163 1.1349 1.12468 1.15029 1.12173 1.13078 1.1255 1.10249 1.14785 1.1281 1.1354 1.15045 1.1272 1.11821 1.14773 1.15016 1.11902 1.13125 1.11752 1.12284 1.13934 1.13259 1.14672 1.12536 1.12957 1.13224 1.13344 1.128
26.2 1.15114 1.128 1.12324 1.11569 1.09917 1.13134 1.12749 1.13625 1.12067 1.10621 1.11157 1.11934 1.10547 1.10677 1.12307 1.12919 1.12047 1.12133 1.12914 1.12724 1.10945 1.1317 1.11599 1.12008 1.13334 1.1066 1.11542 1.13686 1.12753 1.1039
27.5 1.11704 1.08794 1.08076 1.09938 1.08241 1.09 1.08546 1.09352 1.06021 1.08117 1.08298 1.08122 1.08297 1.083 1.07676 1.07515 1.09113 1.09446 1.07263 1.08058 1.07862 1.09936 1.09333 1.08109 1.09595 1.06882 1.08366 1.08531 1.08892 1.06402
28.8 1.0681 1.02723 1.03073 1.02969 1.03881 1.05339 1.04563 1.05213 1.00568 1.03542 1.03756 1.03661 1.03885 1.02339 1.03843 1.0314 1.04624 1.04338 1.02822 1.0218 1.02432 1.03547 1.03527 1.03451 1.03218 1.02113 1.04154 1.03585 1.0315 1.03464
30.1 0.986737 0.979379 0.970297 0.981821 0.970432 0.995354 0.961626 0.980862 0.980635 0.960087 0.984785 0.96541 0.970865 0.976858 0.967186 0.978389 0.974289 0.991308 0.972021 0.990333 0.956213 0.964229 0.982785 0.963233 0.986931 0.965786 0.96206 0.977557 0.962705 0.963944
31.4 0.931869 0.92528 0.910819 0.91012 0.924788 0.912743 0.91203 0.910286 0.897445 0.896964 0.917942 0.911459 0.909816 0.915586 0.905663 0.91593 0.911509 0.915174 0.898282 0.918459 0.907948 0.904416 0.908854 0.910434 0.92042 0.902126 0.912511 0.924566 0.906608 0.894362
32.7 0.852073 0.837518 0.837303 0.841602 0.834712 0.833115 0.840773 0.844626 0.836738 0.837595 0.837602 0.8405 0.833836 0.829136 0.827995 0.839725 0.83627 0.846931 0.839912 0.844225 0.826448 0.840813 0.838213 0.84006 0.842487 0.841869 0.841129 0.834739 0.831827 0.836567
34 0.796438 0.776254 0.782401 0.78852 0.780605 0.776778 0.783526 0.784587 0.780549 0.781206 0.785026 0.785194 0.777348 0.783965 0.779493 0.785262 0.781753 0.786522 0.780551 0.785424 0.775904 0.78441 0.789683 0.780435 0.78682 0.776219 0.783971 0.78399 0.777645 0.774997
35.3 0.744742 0.733986 0.73625 0.733288 0.731917 0.729184 0.731584 0.728205 0.732579 0.728786 0.734159 0.736694 0.734382 0.734465 0.725858 0.730087 0.726673 0.731407 0.730874 0.738199 0.730773 0.735244 0.732923 0.731676 0.731228 0.727969 0.728515 0.726503 0.725514 0.732618
36.6 0.685359 0.673114 0.67319 0.682349 0.671178 0.671559 0.672689 0.685721 0.675277 0.672868 0.680014 0.680336 0.677645 0.674177 0.669335 0.680246 0.670855 0.679598 0.672205 0.678884 0.672037 0.67646 0.675634 0.675611 0.679718 0.671505 0.675673 0.669121 0.675186 0.672282
37.9 0.629724 0.619633 0.619387 0.618672 0.613845 0.617591 0.620668 0.623188 0.619396 0.615918 0.625349 0.621474 0.620711 0.621569 0.614988 0.621918 0.619589 0.624735 0.622221 0.62475 0.61301 0.618097 0.622572 0.622301 0.626017 0.617112 0.62436 0.618277 0.615638 0.619174
39.2 0.575026 0.564563 0.566205 0.572161 0.568484 0.568307 0.574615 0.573058 0.57075 0.563349 0.569679 0.573411 0.569867 0.56911 0.565763 0.565859 0.566665 0.568515 0.569342 0.57237 0.566436 0.567117 0.56593 0.573068 0.57109 0.567581 0.571446 0.568707 0.56356 0.573263
40.5 0.500936 0.493206 0.498982 0.497633 0.493604 0.495133 0.491774 0.494657 0.493861 0.49705 0.495023 0.494822 0.494888 0.496101 0.501127 0.493199 0.494902 0.496226 0.494548 0.494213 0.496405 0.492931 0.494413 0.492837 0.496685 0.492969 0.494661 0.491098 0.4926 0.490366
41.8 0.42917 0.420675 0.422361 0.424033 0.419295 0.420116 0.423293 0.423927 0.428367 0.423095 0.41925 0.420202 0.422207 0.423913 0.420031 0.425669 0.41911 0.421205 0.424395 0.424027 0.418019 0.422418 0.429826 0.419493 0.419626 0.426889 0.419938 0.426482 0.420917 0.420266
43.1 0.361353 0.355704 0.356512 0.35949 0.356832 0.358031 0.358285 0.352507 0.353761 0.355715 0.35395 0.362467 0.356161 0.366158 0.356778 0.359653 0.359117 0.355813 0.358981 0.359379 0.358509 0.361798 0.357612 0.3583 0.359978 0.357469 0.355774 0.36176 0.356152 0.355212
44.4 0.302037 0.293246 0.296881 0.299472 0.293207 0.296073 0.296339 0.301167 0.299306 0.292624 0.295121 0.301712 0.297114 0.295682 0.298982 0.301212 0.298544 0.290408 0.299791 0.301141 0.296274 0.297637 0.298867 0.296672 0.300186 0.300297 0.295976 0.296108 0.294759 0.296415
45.7 0.242937 0.239931 0.239742 0.242704 0.239418 0.23926 0.243042 0.23953 0.237949 0.239935 0.241618 0.240524 0.238823 0.242755 0.242359 0.24072 0.239973 0.240288 0.240886 0.235917 0.243295 0.240239 0.24096 0.239729 0.242141 0.241717 0.239968 0.238448 0.241058 0.238039
47 0.181228 0.184447 0.181931 0.185014 0.183558 0.183571 0.184151 0.182256 0.180121 0.182879 0.185288 0.18457 0.187066 0.181605 0.186981 0.18323 0.182475 0.186583 0.182632 0.183556 0.18179 0.185831 0.187923 0.183874 0.183466 0.186134 0.184456 0.182998 0.180859 0.181669
48.3 0.129807 0.127723 0.131553 0.130349 0.129181 0.124555 0.129577 0.12898 0.126291 0.129296 0.131339 0.129101 0.129227 0.130094 0.132619 0.129087 0.130524 0.129349 0.127829 0.127773 0.128688 0.129616 0.132237 0.126823 0.129067 0.130087 0.132381 0.128295 0.126546 0.129327
48.7 0.109825 0.111897 0.117182 0.112092 0.114275 0.110435 0.112631 0.113787 0.112209 0.116399 0.114145 0.112618 0.111538 0.11026 0.115805 0.115662 0.115195 0.114649 0.111553 0.111423 0.112612 0.111107 0.112738 0.112664 0.1141 0.110646 0.1092 0.113294 0.114205 0.110968

File: iso_XRD_list.txt
# [0.0, 772.0, 1545.0, 2318.0, 3090.0, 3861.0, 4633.0, 5405.0, 6178.0, 6951.0, 7722.0, 8494.0, 9266.0, 10039.0, 10812.0, 11583.0, 12355.0, 13127.0, 13900.0, 14673.0, 15445.0, 16216.0, 16989.0, 17762.0, 18534.0, 19306.0, 20077.0, 20850.0, 21622.0, 22396.0]
1.5 2.38953 2.4716 2.52668 2.69969 2.55317 2.57115 2.59816 2.51112 2.53099 2.52046 2.53656 2.50272 2.52057 2.5075 2.43848 2.52465 2.6024 2.55637 2.60219 2.47722 2.4116 2.61826 2.53895 2.60666 2.59489 2.50416 2.61864 2.71855 2.59654 2.59147
2.8 7.49714 6.71779 6.81811 7.11263 6.82499 7.1132 6.77639 6.88605 6.70411 7.05263 6.69221 6.70877 6.49897 6.81634 6.85509 6.80513 6.8923 6.74185 6.95193 6.71595 6.76453 6.70748 6.54096 6.62755 6.6675 6.76734 6.73984 6.70794 6.76751 6.79569
4.1 9.30972 8.42564 8.63657 8.7294 8.48385 8.6174 8.55186 8.5828 8.48839 8.59442 8.48517 8.36547 8.42588 8.40946 8.79825 8.55913 8.75941 8.66378 8.63589 8.4917 8.56104 8.44207 8.70372 8.64799 8.47062 8.56676 8.45779 8.70672 8.66649 8.80652
5.4 6.49351 5.86179 5.87049 5.9096 5.86443 5.94472 5.7396 5.95797 5.78802 5.83533 5.89501 5.70947 5.90439 5.84885 5.75813 5.80267 5.86096 5.73152 5.97181 5.85867 5.76809 5.74744 5.90214 5.9682 5.89178 5.82421 5.68407 5.83645 5.92964 5.9203
6.7 3.80997 3.45105 3.50527 3.50676 3.43996 3.40937 3.38434 3.59037 3.40515 3.50984 3.41533 3.38513 3.43241 3.43597 3.44066 3.46871 3.56061 3.41227 3.53038 3.48638 3.41002 3.37271 3.5244 3.55535 3.47511 3.4979 3.46025 3.46738 3.51944 3.50768
8 3.70776 3.38438 3.28033 3.49572 3.32588 3.45549 3.3196 3.33523 3.25501 3.30484 3.29694 3.18706 3.36666 3.42883 3.35317 3.40116 3.35263 3.33008 3.38107 3.38105 3.37205 3.32137 3.3543 3.3684 3.36208 3.34734 3.3104 3.37484 3.43403 3.38237
9.3 3.34757 3.04835 3.05994 3.04236 2.98568 3.0169 3.03682 3.097 3.01836 3.00571 3.00664 3.019 3.00194 3.02809 3.05464 3.03943 3.09542 3.05535 3.06641 3.03487 3.01586 2.96835 3.10326 3.02594 3.06 3.07108 2.96974 3.02699 3.03157 3.06656
10.6 2.45606 2.23526 2.27317 2.25326 2.22334 2.26478 2.25584 2.26574 2.22806 2.22671 2.20658 2.25057 2.21002 2.24238 2.26358 2.24271 2.28351 2.22983 2.24759 2.23587 2.18819 2.21117 2.28953 2.25062 2.26527 2.23001 2.19978 2.21659 2.2158 2.25368
11.9 2.15265 1.97594 2.01466 1.99912 1.96546 2.02845 1.99304 2.00897 1.99472 1.99314 2.00082 1.96572 1.98924 2.00038 1.9756 1.9938 2.02236 2.00386 1.99269 1.99141 1.98006 1.98238 1.99291 2.00004 2.01844 2.02834 1.95358 2.0007 1.967 2.02148
13.2 1.87731 1.72234 1.74394 1.74593 1.73724 1.76658 1.72516 1.75452 1.74309 1.75437 1.73235 1.71748 1.73385 1.74851 1.75623 1.74042 1.76772 1.71589 1.74202 1.73459 1.72022 1.7085 1.75909 1.73928 1.7253 1.74396 1.71763 1.7621 1.70678 1.72723
14.5 1.71066 1.55018 1.54878 1.55465 1.52738 1.55506 1.55545 1.57776 1.56651 1.57668 1.56517 1.54628 1.52222 1.54305 1.54644 1.546 1.55831 1.52672 1.55014 1.55726 1.53492 1.52634 1.55071 1.56716 1.55576 1.58484 1.51535 1.56079 1.55799 1.5637
15.8 1.50503 1.38379 1.39918 1.40297 1.385 1.39096 1.40519 1.3921 1.37768 1.40766 1.37564 1.38686 1.37545 1.39519 1.38205 1.3549 1.39951 1.36864 1.41753 1.38239 1.36224 1.34743 1.38669 1.37016 1.39539 1.3964 1.37908 1.39571 1.36979 1.39261
17.1 1.34397 1.2717 1.26614 1.27131 1.26423 1.26781 1.277 1.269 1.25991 1.26628 1.21979 1.27467 1.24141 1.23669 1.27204 1.24117 1.2869 1.25204 1.26362 1.24723 1.25951 1.2337 1.26194 1.26046 1.24955 1.24478 1.24225 1.26118 1.23954 1.24737
18.4 1.30421 1.25912 1.2359 1.24138 1.23709 1.21427 1.21303 1.23733 1.22489 1.25051 1.23086 1.19998 1.21063 1.23574 1.21808 1.24015 1.24141 1.2264 1.21597 1.21601 1.22606 1.20866 1.22551 1.21378 1.217 1.22435 1.23302 1.21558 1.21468 1.20326
19.7 1.26955 1.18761 1.20254 1.1868 1.18828 1.20277 1.18471 1.19748 1.21454 1.2071 1.18297 1.21095 1.18499 1.19999 1.20465 1.17667 1.20553 1.20601 1.19225 1.20158 1.20442 1.17829 1.19471 1.1949 1.19076 1.18144 1.19309 1.18371 1.16802 1.18831
21 1.22652 1.15487 1.15848 1.17115 1.15262 1.16796 1.17276 1.15155 1.15694 1.16096 1.13822 1.14566 1.15567 1.15862 1.14997 1.15285 1.18387 1.17176 1.16177 1.1518 1.17094 1.13629 1.18079 1.17504 1.16729 1.1615 1.15321 1.16655 1.14432 1.15514
22.3 1.21176 1.14454 1.11864 1.13433 1.13551 1.1356 1.14645 1.13242 1.1392 1.13689 1.11945 1.12633 1.12696 1.14192 1.12842 1.13185 1.15839 1.12954 1.12398 1.13011 1.13629 1.10835 1.13672 1.1525 1.12445 1.12336 1.13869 1.11017 1.11592 1.12739
23.6 1.17593 1.11888 1.10623 1.117 1.12463 1.10469 1.12234 1.11522 1.12906 1.11538 1.09374 1.10498 1.09421 1.11433 1.10804 1.11356 1.11574 1.10487 1.11161 1.12354 1.11073 1.10941 1.1181 1.11318 1.11754 1.10135 1.09274 1.09364 1.08508 1.10618
24.9 1.14301 1.09545 1.09401 1.08405 1.09689 1.10042 1.08927 1.10215 1.09962 1.09138 1.09747 1.08489 1.09026 1.10294 1.08104 1.06422 1.0983 1.08584 1.08663 1.08055 1.09608 1.05968 1.08575 1.09209 1.09866 1.08417 1.07796 1.09271 1.07529 1.08805
26.2 1.14803 1.07852 1.0738 1.07756 1.07655 1.07382 1.06261 1.08419 1.09038 1.08018 1.06222 1.0614 1.06644 1.08521 1.08405 1.08028 1.07768 1.07506 1.07713 1.08247 1.09045 1.07235 1.07754 1.07622 1.09176 1.07833 1.07002 1.08335 1.0633 1.07355
27.5 1.09095 1.06554 1.05282 1.04941 1.04857 1.05765 1.04158 1.05272 1.05556 1.04112 1.04869 1.05156 1.04814 1.04861 1.03939 1.04533 1.05776 1.04806 1.06001 1.03596 1.05255 1.05278 1.04386 1.04823 1.05366 1.06081 1.04806 1.04341 1.04263 1.05446
28.8 1.0367 1.00603 1.00182 0.997407 0.992665 0.98992 0.99157 1.00593 1.01164 1.00128 0.997954 1.00164 0.982766 1.00434 1.0102 0.994597 1.00083 0.996978 0.995553 1.00158 0.996026 0.980704 0.997251 1.00364 0.982373 0.98906 1.00154 1.00136 0.982039 0.994729
30.1 0.965584 0.948919 0.946848 0.943209 0.941894 0.941414 0.938534 0.951426 0.957438 0.944766 0.940456 0.932429 0.943428 0.952382 0.943234 0.949658 0.943464 0.94439 0.944428 0.931087 0.946226 0.945978 0.939225 0.953453 0.945349 0.935341 0.944261 0.941797 0.931908 0.943824
31.4 0.909449 0.886173 0.888112 0.889396 0.879982 0.880023 0.87157 0.885896 0.891317 0.876335 0.859761 0.86693 0.873848 0.880222 0.881014 0.88328 0.883541 0.872049 0.891846 0.855745 0.876132 0.873475 0.87584 0.884963 0.86564 0.875409 0.881118 0.865843 0.870931 0.872716
32.7 0.83479 0.805043 0.812164 0.810144 0.793611 0.807507 0.797147 0.798609 0.807164 0.804913 0.79371 0.799004 0.798695 0.797307 0.804583 0.80329 0.803993 0.80231 0.806103 0.805747 0.804022 0.80648 0.803577 0.807968 0.809448 0.801081 0.809814 0.803869 0.794345 0.801963
34 0.774908 0.759519 0.752428 0.751456 0.746351 0.751145 0.749721 0.754089 0.7534 0.751351 0.746918 0.74934 0.757537 0.752609 0.752482 0.749513 0.754339 0.750633 0.749654 0.750807 0.753804 0.752653 0.746537 0.750947 0.749301 0.75197 0.752629 0.745643 0.742944 0.744957
35.3 0.710821 0.711569 0.694854 0.697513 0.697868 0.695701 0.694981 0.699975 0.70159 0.697993 0.697775 0.69891 0.697902 0.697574 0.695288 0.700323 0.706465 0.696568 0.701119 0.695743 0.692113 0.698716 0.697879 0.702868 0.701184 0.694969 0.699582 0.700532 0.692573 0.699539
36.6 0.651664 0.646994 0.647757 0.646754 0.638013 0.635927 0.639709 0.645073 0.640547 0.644781 0.637912 0.638528 0.647025 0.639188 0.647914 0.642405 0.645381 0.640407 0.632465 0.644408 0.640595 0.638256 0.638642 0.647582 0.646607 0.643757 0.635965 0.64065 0.634925 0.634788
37.9 0.595321 0.587777 0.584384 0.582422 0.577308 0.583108 0.577579 0.581012 0.584685 0.591566 0.585398 0.587957 0.591124 0.58755 0.586218 0.588979 0.58935 0.586142 0.584427 0.580547 0.586304 0.585613 0.582923 0.589175 0.587323 0.587242 0.584408 0.578289 0.588862 0.579343
39.2 0.541378 0.538395 0.538729 0.531388 0.540176 0.533174 0.537857 0.541123 0.538081 0.538641 0.530938 0.535479 0.534384 0.537432 0.538234 0.540502 0.537208 0.533982 0.535765 0.531321 0.535808 0.528773 0.53436 0.538136 0.534049 0.539255 0.532935 0.538859 0.530734 0.532788
40.5 0.474175 0.459311 0.465198 0.46365 0.458585 0.463053 0.46408 0.466563 0.458724 0.464782 0.464547 0.462471 0.460354 0.461594 0.463701 0.461857 0.464998 0.460011 0.462784 0.465213 0.467073 0.461928 0.462144 0.461659 0.467359 0.459643 0.46133 0.459863 0.460781 0.464748
41.8 0.398477 0.39589 0.394801 0.390319 0.3978 0.392247 0.39078 0.393011 0.392714 0.391103 0.391901 0.389942 0.392168 0.391858 0.392816 0.396101 0.396339 0.392952 0.387817 0.393902 0.395257 0.392435 0.397263 0.395738 0.395679 0.389247 0.39467 0.392052 0.384946 0.38995
43.1 0.330031 0.329749 0.327819 0.331565 0.322005 0.32586 0.32273 0.325565 0.323523 0.321954 0.326016 0.328847 0.331667 0.330346 0.325416 0.3236 0.326824 0.325887 0.319338 0.326723 0.326058 0.325435 0.32954 0.330292 0.322071 0.327478 0.328143 0.32613 0.325774 0.327744
44.4 0.268233 0.265372 0.266121 0.266107 0.267902 0.263935 0.271352 0.268993 0.268047 0.268317 0.267674 0.271294 0.269806 0.264838 0.269968 0.267038 0.268508 0.26765 0.264128 0.266572 0.270338 0.266646 0.266022 0.270237 0.266983 0.26975 0.268976 0.268338 0.265813 0.26643
45.7 0.212089 0.20788 0.206379 0.2097 0.212794 0.206496 0.208597 0.210742 0.208565 0.205442 0.205825 0.210874 0.208435 0.20989 0.209907 0.207442 0.21066 0.208575 0.209882 0.209248 0.212563 0.208154 0.208599 0.212031 0.208226 0.206924 0.211081 0.205029 0.2074 0.209635
47 0.154853 0.153306 0.152799 0.155394 0.156619 0.153313 0.155837 0.153212 0.155522 0.154259 0.153577 0.156471 0.156887 0.157362 0.152087 0.152113 0.152243 0.151064 0.152455 0.157643 0.15032 0.156071 0.155803 0.150364 0.151689 0.152532 0.15135 0.151606 0.15324 0.153991
48.3 0.101474 0.09639975 0.100441 0.101806 0.100697 0.09911391 0.09491848 0.09956904 0.09893488 0.100231 0.09715000 0.09959559 0.09838352 0.09788542 0.09875762 0.09915833 0.09875402 0.09939928 0.100534 0.09807978 0.09415944 0.09843575 0.101179 0.09767898 0.09958071 0.10265 0.100426 0.09652577 0.100843 0.09784230
48.7 0.08392089 0.08264160 0.08486739 0.08320781 0.08099606 0.08529213 0.08435697 0.08237964 0.08140917 0.08253837 0.07958911 0.08441110 0.08371652 0.08328977 0.08410559 0.08153776 0.08330782 0.08144245 0.08332517 0.08143481 0.08144005 0.08079445 0.08545972 0.08145765 0.08492113 0.07765046 0.08145390 0.08167418 0.08129279 0.08011257